key_resp.keys,key_resp.rt,practice_taps.keys,practice_taps.rt,keyresp.keys,keyresp.rt,practice_stims_loop.thisRepN,practice_stims_loop.thisTrialN,practice_stims_loop.thisN,practice_stims_loop.thisIndex,practice_stims_loop.ran,sndfile,type,tempo,cond,version,delay,dur,Participant Initials,"If you are a MTurk worker, what is your MTurk worker ID?","If you are not an MTurk worker, please provide your email address",Are you wearing headphones?,What are the headphone make and model?,"How many years of musical training, if any, do you have?",Do you have any hearing problems? Please describe,What is your sex (f/m/decline)?,What is your age?,What is your handedness (R/L/ambi)?,Are you currently in a secure and quiet room without a possible interruption?,session,date,expName,psychopyVersion,OS,frameRate,instructions_prompt.keys,instructions_prompt.rt,block1_taps.keys,block1_taps.rt,key_resp_2.keys,key_resp_2.rt,trials.thisRepN,trials.thisTrialN,trials.thisN,trials.thisIndex,trials.ran,key_resp2.keys,key_resp2.rt,block2_taps.keys,block2_taps.rt,key_resp_3.keys,key_resp_3.rt,trials_2.thisRepN,trials_2.thisTrialN,trials_2.thisN,trials_2.thisIndex,trials_2.ran,key_resp_4.keys,key_resp_4.rt
space,14.499195,"[""space"",""space"",""space"",""space"",""space"",""space"",""space"",""space"",""space"",""space"",""space"",""space"",""space""]","[1.1036650000023656,2.5957650000054855,3.5009049999935087,4.5243849999969825,5.471395000000484,6.316240000014659,7.2598200000065845,8.243285000004107,9.14127500000177,10.009229999996023,10.92464499999187,11.879175000009127,12.797214999998687]",space,1.408105,0.0,0.0,0.0,1.0,1.0,block_2/none_t_119_1.wav,timbre,t,none,119.0,1.172164666,14.53370662,,,,Yes,EPOS Sennheiser GSP 302,1,No,Male,21,Left,Yes,1,2020-10-05_10h32.11.341,kura-A1,2020.1.2,Win32,60,,,,,,,,,,,,,,,,,,,,,,,,
,,"[""space"",""space"",""space"",""space"",""space"",""space"",""space"",""space"",""space"",""space"",""space"",""space"",""space"",""space"",""space"",""space"",""space"",""space"",""space"",""space""]","[0.9685150000150315,1.7693950000102632,2.6002000000153203,3.4482800000114366,4.537684999988414,4.946649999998044,5.704629999992903,6.495744999992894,7.231534999998985,7.983895000012126,8.779320000001462,9.507115000014892,10.28032499999972,11.035875000001397,12.081065000005765,12.517939999990631,13.367765000002692,14.25289000000339,14.842420000000857,15.574670000001788]",space,1.11755,0.0,1.0,1.0,0.0,1.0,block_1/strong_n_81_2.wav,no,n,strong,81.0,1.560205308,16.72288105,,,,Yes,EPOS Sennheiser GSP 302,1,No,Male,21,Left,Yes,1,2020-10-05_10h32.11.341,kura-A1,2020.1.2,Win32,60,,,,,,,,,,,,,,,,,,,,,,,,
,,"[""space"",""space"",""space"",""space"",""space"",""space"",""space"",""space"",""space"",""space"",""space""]","[0.5741899999848101,1.3166849999979604,2.0423850000079256,3.0161950000037905,3.8670899999851827,5.02085500000976,5.911410000000615,6.813850000005914,7.705004999996163,8.447905000008177,9.078485000005458]",space,0.631625,0.0,2.0,2.0,2.0,1.0,block_1/weak_n_119_1.wav,no,n,weak,119.0,1.75153664,11.06591306,,,,Yes,EPOS Sennheiser GSP 302,1,No,Male,21,Left,Yes,1,2020-10-05_10h32.11.341,kura-A1,2020.1.2,Win32,60,,,,,,,,,,,,,,,,,,,,,,,,
,,"[""space"",""space"",""space"",""space"",""space"",""space"",""space"",""space"",""space"",""space"",""space"",""space"",""space"",""space"",""space""]","[0.5029899999790359,2.1423499999800697,2.990754999977071,3.711639999994077,4.454700000002049,5.030444999982137,5.60232000000542,6.251575000002049,6.853244999976596,7.4064199999847915,7.9608749999897555,8.534199999994598,9.090324999997392,9.63756000000285,10.198109999997541]",space,0.541695,0.0,3.0,3.0,3.0,1.0,block_2/weak_t_119_2.wav,timbre,t,weak,119.0,2.180699762,12.4495433,,,,Yes,EPOS Sennheiser GSP 302,1,No,Male,21,Left,Yes,1,2020-10-05_10h32.11.341,kura-A1,2020.1.2,Win32,60,,,,,,,,,,,,,,,,,,,,,,,,
,,,,,,,,,,,block_1/weak_n_105_2.wav,no,n,weak,105.0,1.25756433,14.19910628,,,,Yes,EPOS Sennheiser GSP 302,1,No,Male,21,Left,Yes,1,2020-10-05_10h32.11.341,kura-A1,2020.1.2,Win32,60,space,5.00882,"[""space"",""space"",""space"",""space"",""space"",""space"",""space"",""space"",""space"",""space"",""space"",""space"",""space"",""space"",""space"",""space"",""space"",""space"",""space"",""space""]","[0.5209999999788124,1.1658149999857415,1.6719199999934062,2.2198849999986123,2.7917649999726564,3.4184799999929965,4.154819999996107,4.795924999983981,5.412509999994654,6.075624999997672,6.820654999988619,7.544384999986505,8.150154999981169,8.848589999979595,9.586699999985285,10.264224999991711,10.937504999979865,11.552714999997988,12.224254999979166,12.775474999973085]",space,0.47917,0.0,0.0,0.0,26.0,1.0,,,,,,,,,,,,,
,,,,,,,,,,,block_1/none_n_92_1.wav,no,n,none,92.0,1.720415177,18.30862379,,,,Yes,EPOS Sennheiser GSP 302,1,No,Male,21,Left,Yes,1,2020-10-05_10h32.11.341,kura-A1,2020.1.2,Win32,60,,,"[""space"",""space"",""space"",""space"",""space"",""space"",""space"",""space"",""space"",""space"",""space"",""space"",""space"",""space"",""space"",""space"",""space"",""space"",""space""]","[1.284319999977015,2.196544999984326,3.030349999986356,4.151614999980666,5.170254999975441,6.122275000001537,7.161679999990156,7.895954999985406,8.630334999994375,9.501980000000913,10.578329999989364,11.255229999980656,11.99569499999052,12.821684999973513,13.533564999990631,14.357569999992847,15.186409999994794,16.00692999997409,16.717444999987492]",space,0.562445,0.0,1.0,1.0,20.0,1.0,,,,,,,,,,,,,
,,,,,,,,,,,block_1/weak_n_72_1.wav,no,n,weak,72.0,1.347131367,16.2574715,,,,Yes,EPOS Sennheiser GSP 302,1,No,Male,21,Left,Yes,1,2020-10-05_10h32.11.341,kura-A1,2020.1.2,Win32,60,,,"[""space"",""space"",""space"",""space"",""space"",""space"",""space"",""space"",""space"",""space"",""space"",""space"",""space"",""space"",""space"",""space"",""space"",""space""]","[1.036019999999553,1.849324999988312,2.63796499997261,3.3776549999893177,4.1459800000011455,4.94094000000041,5.651854999974603,6.450559999997495,7.178354999981821,7.912544999999227,8.725014999974519,9.554199999984121,10.32187499999418,11.26801999998861,12.134559999976773,13.01048999998602,13.816659999982221,14.561204999976326]",space,0.355855,0.0,2.0,2.0,15.0,1.0,,,,,,,,,,,,,
,,,,,,,,,,,block_1/medium_n_105_2.wav,no,n,medium,105.0,2.100494097,12.22140113,,,,Yes,EPOS Sennheiser GSP 302,1,No,Male,21,Left,Yes,1,2020-10-05_10h32.11.341,kura-A1,2020.1.2,Win32,60,,,"[""space"",""space"",""space"",""space"",""space"",""space"",""space"",""space"",""space"",""space"",""space"",""space"",""space"",""space"",""space"",""space"",""space"",""space""]","[1.0579750000033528,1.7704000000085216,2.60837500001071,3.099900000001071,3.611304999998538,4.120764999999665,4.62009000001126,5.1166550000198185,5.585330000001704,6.181500000006054,6.6923400000086986,7.178275000012945,7.6515350000117905,8.214905000000726,8.91435000000638,9.395060000009835,9.887849999999162,10.398125000006985]",space,0.301695,0.0,3.0,3.0,3.0,1.0,,,,,,,,,,,,,
,,,,,,,,,,,block_1/medium_n_72_1.wav,no,n,medium,72.0,1.188923945,17.15940014,,,,Yes,EPOS Sennheiser GSP 302,1,No,Male,21,Left,Yes,1,2020-10-05_10h32.11.341,kura-A1,2020.1.2,Win32,60,,,"[""space"",""space"",""space"",""space"",""space"",""space"",""space"",""space"",""space"",""space"",""space"",""space"",""space"",""space"",""space"",""space"",""space"",""space"",""space""]","[0.6216650000133086,1.280300000013085,1.9459250000072643,2.8343349999922793,3.635390000010375,4.485504999989644,5.29816999999457,6.273940000013681,7.197210000013001,8.116470000008121,9.03087499999674,9.869169999990845,10.904830000014044,11.668845000007423,12.501015000016196,13.282839999999851,14.21952000001329,15.242129999998724,15.817555000016]",space,0.44656,0.0,4.0,4.0,10.0,1.0,,,,,,,,,,,,,
,,,,,,,,,,,block_1/medium_n_105_1.wav,no,n,medium,105.0,2.470231961,15.66819115,,,,Yes,EPOS Sennheiser GSP 302,1,No,Male,21,Left,Yes,1,2020-10-05_10h32.11.341,kura-A1,2020.1.2,Win32,60,,,"[""space"",""space"",""space"",""space"",""space"",""space"",""space"",""space"",""space"",""space"",""space"",""space"",""space"",""space"",""space"",""space"",""space""]","[0.8440849999897182,1.8421500000113156,2.8268300000054296,3.626125000009779,4.338175000011688,5.084594999992987,5.859744999994291,6.586164999986067,7.269079999998212,7.911254999984521,8.5929049999977,9.274784999986878,9.935540000005858,10.753865000006044,11.451299999986077,12.159840000007534,12.872795000002952]",space,0.498565,0.0,5.0,5.0,7.0,1.0,,,,,,,,,,,,,
,,,,,,,,,,,block_1/strong_n_105_1.wav,no,n,strong,105.0,1.182925411,14.58124741,,,,Yes,EPOS Sennheiser GSP 302,1,No,Male,21,Left,Yes,1,2020-10-05_10h32.11.341,kura-A1,2020.1.2,Win32,60,,,"[""space"",""space"",""space"",""space"",""space"",""space"",""space"",""space"",""space"",""space"",""space"",""space"",""space"",""space"",""space"",""space"",""space"",""space"",""space"",""space""]","[0.7792049999989104,1.4987000000255648,2.2424450000107754,2.955065000016475,3.633995000011055,4.348320000019157,5.0570000000006985,5.691165000025649,6.381170000007842,7.029765000013867,7.687655000016093,8.36533000000054,9.08380500000203,9.76071500001126,10.435519999999087,11.126820000004955,11.758110000024317,12.4362250000122,13.10244000001694,13.791975000000093]",space,0.47022,0.0,6.0,6.0,13.0,1.0,,,,,,,,,,,,,
,,,,,,,,,,,block_1/none_n_81_2.wav,no,n,none,81.0,1.043160571,20.19454379,,,,Yes,EPOS Sennheiser GSP 302,1,No,Male,21,Left,Yes,1,2020-10-05_10h32.11.341,kura-A1,2020.1.2,Win32,60,,,"[""space"",""space"",""space"",""space"",""space"",""space"",""space"",""space"",""space"",""space"",""space"",""space"",""space"",""space"",""space"",""space""]","[0.553909999987809,1.5414849999942817,3.744184999988647,4.511590000009164,5.743545000004815,7.105864999990445,8.551095000002533,9.670870000001742,10.765435000008438,11.998599999991711,13.103334999992512,14.501664999988861,15.41729499999201,17.15538499999093,17.857824999984587,19.11894499999471]",space,0.6959,0.0,7.0,7.0,28.0,1.0,,,,,,,,,,,,,
,,,,,,,,,,,block_1/weak_n_81_2.wav,no,n,weak,81.0,1.567957537,13.4515403,,,,Yes,EPOS Sennheiser GSP 302,1,No,Male,21,Left,Yes,1,2020-10-05_10h32.11.341,kura-A1,2020.1.2,Win32,60,,,"[""space"",""space"",""space"",""space"",""space"",""space"",""space"",""space"",""space"",""space"",""space"",""space"",""space"",""space"",""space"",""space"",""space"",""space""]","[0.8963050000020303,1.6461549999949057,2.358314999990398,2.9667699999990873,3.7010949999967124,4.452045000012731,5.180495000007795,5.912414999998873,6.472734999988461,6.994830000010552,7.598440000001574,8.198399999993853,8.78992000001017,9.331635000009555,9.936495000001742,10.477615000010701,11.037295000016456,11.675890000013169]",space,0.552445,0.0,8.0,8.0,32.0,1.0,,,,,,,,,,,,,
,,,,,,,,,,,block_1/none_n_81_1.wav,no,n,none,81.0,1.16825706,17.43084209,,,,Yes,EPOS Sennheiser GSP 302,1,No,Male,21,Left,Yes,1,2020-10-05_10h32.11.341,kura-A1,2020.1.2,Win32,60,,,"[""space"",""space"",""space"",""space"",""space"",""space"",""space"",""space"",""space"",""space"",""space"",""space"",""space"",""space"",""space""]","[0.7548949999909382,1.7671449999907054,2.747154999990016,3.7523700000019744,4.5722249999816995,5.295714999985648,5.944514999981038,6.742425000004005,7.570990000007441,8.674514999991516,9.98295999999391,11.422365000005811,12.970604999980424,14.3106099999859,15.443949999986216]",space,0.42078,0.0,9.0,9.0,29.0,1.0,,,,,,,,,,,,,
,,,,,,,,,,,block_1/none_n_119_2.wav,no,n,none,119.0,2.128313718,13.68559263,,,,Yes,EPOS Sennheiser GSP 302,1,No,Male,21,Left,Yes,1,2020-10-05_10h32.11.341,kura-A1,2020.1.2,Win32,60,,,"[""space"",""space"",""space"",""space"",""space"",""space"",""space"",""space"",""space""]","[0.3421950000047218,1.5140750000136904,2.5912349999998696,3.9610800000082236,5.241964999993797,6.988270000001648,8.462350000016158,10.203509999992093,11.152204999991227]",space,0.519555,0.0,10.0,10.0,25.0,1.0,,,,,,,,,,,,,
,,,,,,,,,,,block_1/weak_n_72_2.wav,no,n,weak,72.0,2.426446225,22.38744396,,,,Yes,EPOS Sennheiser GSP 302,1,No,Male,21,Left,Yes,1,2020-10-05_10h32.11.341,kura-A1,2020.1.2,Win32,60,,,"[""space"",""space"",""space"",""space"",""space"",""space"",""space"",""space"",""space"",""space"",""space"",""space"",""space"",""space"",""space"",""space""]","[0.6555999999982305,1.5390150000166614,3.024165000009816,4.249689999996917,5.281840000010561,6.312754999991739,7.088335000007646,8.552100000000792,10.42001000000164,11.774735000013607,13.578605000016978,14.816909999994095,16.12380500001018,17.520069999998668,18.737905000016326,20.04612499999348]",space,0.339535,0.0,11.0,11.0,11.0,1.0,,,,,,,,,,,,,
,,,,,,,,,,,block_1/strong_n_72_1.wav,no,n,strong,72.0,1.207870441,16.92877747,,,,Yes,EPOS Sennheiser GSP 302,1,No,Male,21,Left,Yes,1,2020-10-05_10h32.11.341,kura-A1,2020.1.2,Win32,60,,,"[""space"",""space"",""space"",""space"",""space"",""space"",""space"",""space"",""space"",""space"",""space"",""space"",""space"",""space"",""space"",""space"",""space"",""space"",""space"",""space"",""space""]","[0.5491749999928288,1.0836450000060722,1.7633199999982025,2.532854999997653,3.340090000012424,4.13105500000529,4.926750000013271,5.694255000009434,6.47114499998861,7.303355000010924,8.095765000005485,8.908794999995735,9.75261500000488,10.554730000003474,11.323524999985239,12.164630000013858,12.923375000013039,13.737824999989243,14.491069999989122,15.363940000010189,16.16276000000653]",space,0.55967,0.0,12.0,12.0,33.0,1.0,,,,,,,,,,,,,
,,,,,,,,,,,block_1/medium_n_81_2.wav,no,n,medium,81.0,2.424750646,16.12729033,,,,Yes,EPOS Sennheiser GSP 302,1,No,Male,21,Left,Yes,1,2020-10-05_10h32.11.341,kura-A1,2020.1.2,Win32,60,,,"[""space"",""space"",""space"",""space"",""space"",""space"",""space"",""space"",""space"",""space"",""space"",""space"",""space"",""space"",""space"",""space"",""space"",""space"",""space""]","[0.5949600000167266,1.4077150000084657,2.2319050000223797,2.991455000010319,3.68510500001139,4.35157500000787,5.065395000012359,5.765795000013895,6.533725000015693,7.1749000000127126,7.904050000011921,8.569705000001704,9.31938000000082,9.963405000016792,10.665585000009742,11.358065000007628,12.00291500001913,12.713305000012042,13.392380000004778]",space,0.34308,0.0,13.0,13.0,34.0,1.0,,,,,,,,,,,,,
,,,,,,,,,,,block_1/none_n_105_1.wav,no,n,none,105.0,1.562974393,15.68542337,,,,Yes,EPOS Sennheiser GSP 302,1,No,Male,21,Left,Yes,1,2020-10-05_10h32.11.341,kura-A1,2020.1.2,Win32,60,,,"[""space"",""space"",""space"",""space"",""space"",""space"",""space"",""space"",""space"",""space"",""space"",""space"",""space"",""space"",""space"",""space"",""space"",""space"",""space"",""space"",""space"",""space"",""space"",""space"",""space"",""space"",""space"",""space"",""space"",""space""]","[0.4848500000080094,1.9131099999940488,2.753755000012461,3.0848000000114553,3.676420000003418,4.22181499999715,4.7677850000036415,5.28813000000082,5.840179999999236,6.3603299999958836,6.929644999996526,7.919564999989234,8.106945000006817,8.724734999996144,9.363749999989523,9.956669999985024,10.522614999994403,11.036575000005541,11.228680000000168,11.490510000003269,11.59661999999662,11.782310000009602,11.964789999998175,12.078074999997625,12.238940000010189,12.82814500000677,12.848399999988033,12.927659999986645,13.11757500001113,13.676284999994095]",space,0.47852,0.0,14.0,14.0,0.0,1.0,,,,,,,,,,,,,
,,,,,,,,,,,block_1/strong_n_105_2.wav,no,n,strong,105.0,2.465472491,15.61086932,,,,Yes,EPOS Sennheiser GSP 302,1,No,Male,21,Left,Yes,1,2020-10-05_10h32.11.341,kura-A1,2020.1.2,Win32,60,,,"[""space"",""space"",""space"",""space"",""space"",""space"",""space"",""space"",""space"",""space"",""space"",""space"",""space"",""space"",""space"",""space"",""space"",""space"",""space"",""space"",""space""]","[1.1422349999775179,1.1703299999935552,1.6593949999951292,2.2743349999946076,2.8899749999982305,3.541704999981448,4.163254999992205,4.8113849999790546,5.452594999980647,6.148694999981672,6.833924999984447,7.530674999987241,8.190050000004703,8.754474999994272,9.468439999996917,10.134109999984503,10.799100000003818,11.446204999985639,12.089799999987008,12.769585000001825,13.408605000004172]",space,0.373155,0.0,15.0,15.0,9.0,1.0,,,,,,,,,,,,,
,,,,,,,,,,,block_1/none_n_105_2.wav,no,n,none,105.0,1.949697166,16.59064955,,,,Yes,EPOS Sennheiser GSP 302,1,No,Male,21,Left,Yes,1,2020-10-05_10h32.11.341,kura-A1,2020.1.2,Win32,60,,,"[""space"",""space"",""space"",""space"",""space"",""space"",""space"",""space"",""space"",""space"",""space"",""space"",""space"",""space"",""space"",""space"",""space"",""space"",""space"",""space""]","[0.6002499999885913,1.3755050000036135,2.201499999995576,3.1246199999877717,3.9505599999974947,4.694239999982528,5.486650000006193,6.241234999994049,6.977114999986952,7.651944999990519,8.380154999991646,9.086379999993369,9.719444999995176,10.418195000005653,11.078825000004144,11.823984999995446,12.3602200000023,12.904699999984587,13.662719999992987,14.437839999998687]",space,0.324165,0.0,16.0,16.0,4.0,1.0,,,,,,,,,,,,,
,,,,,,,,,,,block_1/weak_n_119_1.wav,no,n,weak,119.0,2.415285966,11.72966238,,,,Yes,EPOS Sennheiser GSP 302,1,No,Male,21,Left,Yes,1,2020-10-05_10h32.11.341,kura-A1,2020.1.2,Win32,60,,,"[""space"",""space"",""space"",""space"",""space"",""space"",""space"",""space"",""space""]","[0.8726450000249315,1.5330500000272878,2.3478549999999814,3.397205000015674,4.667550000012852,5.913955000025453,7.397460000007413,8.375590000010561,9.125165000004927]",space,0.403115,0.0,17.0,17.0,38.0,1.0,,,,,,,,,,,,,
,,,,,,,,,,,block_1/none_n_119_1.wav,no,n,none,119.0,2.383659144,14.54474758,,,,Yes,EPOS Sennheiser GSP 302,1,No,Male,21,Left,Yes,1,2020-10-05_10h32.11.341,kura-A1,2020.1.2,Win32,60,,,"[""space"",""space"",""space"",""space"",""space"",""space"",""space""]","[0.3297000000020489,2.315354999998817,6.3961599999747705,8.113234999997076,9.543894999980694,10.822844999987865,12.335120000003371]",space,0.4158,0.0,18.0,18.0,22.0,1.0,,,,,,,,,,,,,
,,,,,,,,,,,block_1/weak_n_105_1.wav,no,n,weak,105.0,1.735757625,11.75240162,,,,Yes,EPOS Sennheiser GSP 302,1,No,Male,21,Left,Yes,1,2020-10-05_10h32.11.341,kura-A1,2020.1.2,Win32,60,,,"[""space"",""space"",""space"",""space"",""space"",""space"",""space"",""space"",""space"",""space"",""space"",""space"",""space"",""space"",""space"",""space"",""space""]","[0.6278999999922235,1.190904999995837,1.9261999999871477,2.4341349999886006,3.1563749999913853,4.044220000010682,4.3514999999897555,4.8667699999932665,5.432009999989532,5.9531000000133645,6.5532250000105705,7.201300000015181,7.794005000003381,8.369299999991199,8.913945000007516,9.47368500000448,10.132775000005495]",space,0.406875,0.0,19.0,19.0,27.0,1.0,,,,,,,,,,,,,
,,,,,,,,,,,block_1/strong_n_72_2.wav,no,n,strong,72.0,1.592838259,18.92930084,,,,Yes,EPOS Sennheiser GSP 302,1,No,Male,21,Left,Yes,1,2020-10-05_10h32.11.341,kura-A1,2020.1.2,Win32,60,,,"[""space"",""space"",""space"",""space"",""space"",""space"",""space"",""space"",""space"",""space"",""space"",""space"",""space"",""space"",""space"",""space"",""space"",""space"",""space"",""space"",""space""]","[0.5111949999991339,1.023379999998724,1.6485300000058487,2.5552000000025146,3.455005000025267,4.326845000003232,5.295910000015283,6.219760000007227,7.189905000006547,8.507130000012694,8.957560000009835,9.80315000002156,10.567055000021355,11.33555499999784,12.30337999999756,13.279185000021243,14.167550000012852,15.095965000014985,16.051915000018198,17.01246500000707,17.751410000026226]",space,0.44557,0.0,20.0,20.0,30.0,1.0,,,,,,,,,,,,,
,,,,,,,,,,,block_1/medium_n_119_2.wav,no,n,medium,119.0,1.29591098,10.35291778,,,,Yes,EPOS Sennheiser GSP 302,1,No,Male,21,Left,Yes,1,2020-10-05_10h32.11.341,kura-A1,2020.1.2,Win32,60,,,"[""space"",""space"",""space"",""space"",""space"",""space"",""space"",""space"",""space"",""space"",""space"",""space"",""space"",""space"",""space"",""space"",""space""]","[0.61226500000339,1.0532249999814667,1.5542100000020582,1.9719650000042748,2.4129099999845494,2.9205150000052527,3.4679049999976996,4.124409999989439,4.692184999992605,5.299704999983078,5.850344999984372,6.361914999986766,7.004205000004731,7.5168999999878,8.132374999986496,8.986724999995204,9.166330000007292]",space,0.304535,0.0,21.0,21.0,21.0,1.0,,,,,,,,,,,,,
,,,,,,,,,,,block_1/none_n_72_1.wav,no,n,none,72.0,1.339316998,21.90480453,,,,Yes,EPOS Sennheiser GSP 302,1,No,Male,21,Left,Yes,1,2020-10-05_10h32.11.341,kura-A1,2020.1.2,Win32,60,,,"[""space"",""space"",""space"",""space"",""space"",""space"",""space"",""space"",""space"",""space"",""space"",""space"",""space""]","[0.6253250000008848,3.076165000005858,4.618810000014491,5.959975000005215,7.054854999994859,8.81112500000745,10.425450000009732,11.671375000005355,13.173975000012433,15.146235000021989,16.27936499999487,17.219444999995176,19.159680000011576]",space,2.921485,0.0,22.0,22.0,18.0,1.0,,,,,,,,,,,,,
,,,,,,,,,,,block_1/strong_n_92_1.wav,no,n,strong,92.0,1.355123487,13.84328675,,,,Yes,EPOS Sennheiser GSP 302,1,No,Male,21,Left,Yes,1,2020-10-05_10h32.11.341,kura-A1,2020.1.2,Win32,60,,,"[""space"",""space"",""space"",""space"",""space"",""space"",""space"",""space"",""space"",""space"",""space"",""space"",""space"",""space"",""space"",""space"",""space"",""space"",""space"",""space"",""space""]","[0.6014049999939743,1.2365649999992456,1.7521199999901,2.315249999985099,2.9533700000029057,3.5451799999864306,4.230080000008456,4.791410000005271,5.420909999986179,5.977255000005243,6.617514999990817,7.345295000006445,7.905070000007981,8.500525000010384,9.364449999993667,9.659454999986337,10.241299999994226,10.904940000007628,11.551724999997532,12.144949999987148,12.776914999994915]",space,0.3973,0.0,23.0,23.0,37.0,1.0,,,,,,,,,,,,,
,,,,,,,,,,,block_1/weak_n_81_1.wav,no,n,weak,81.0,1.583230306,14.42368382,,,,Yes,EPOS Sennheiser GSP 302,1,No,Male,21,Left,Yes,1,2020-10-05_10h32.11.341,kura-A1,2020.1.2,Win32,60,,,"[""space"",""space"",""space"",""space"",""space"",""space"",""space"",""space"",""space"",""space"",""space"",""space"",""space"",""space"",""space"",""space"",""space""]","[0.5769100000034086,1.217225000000326,2.0895799999998417,3.255120000016177,4.063420000020415,4.829385000019101,5.709440000005998,6.372555000009015,7.039915000001201,7.775924999994459,8.595304999995278,9.336660000000848,10.046340000000782,10.749130000011064,11.477834999997867,12.236885000020266,13.013819999992847]",space,0.647215,0.0,24.0,24.0,35.0,1.0,,,,,,,,,,,,,
,,,,,,,,,,,block_1/medium_n_119_1.wav,no,n,medium,119.0,1.649869951,11.21667267,,,,Yes,EPOS Sennheiser GSP 302,1,No,Male,21,Left,Yes,1,2020-10-05_10h32.11.341,kura-A1,2020.1.2,Win32,60,,,"[""space"",""space"",""space"",""space"",""space"",""space"",""space"",""space"",""space"",""space"",""space"",""space"",""space"",""space"",""space"",""space"",""space""]","[0.8282599999802187,1.5587499999965075,2.407970000000205,3.071139999985462,3.696425000001909,4.190650000004098,4.762939999985974,5.344164999987697,5.8335450000013225,6.318989999999758,6.800984999979846,7.272109999990789,7.756489999999758,8.267224999988684,8.751720000000205,9.292654999997467,9.758399999991525]",space,0.976505,0.0,25.0,25.0,24.0,1.0,,,,,,,,,,,,,
,,,,,,,,,,,block_1/medium_n_92_2.wav,no,n,medium,92.0,1.321097132,12.85819464,,,,Yes,EPOS Sennheiser GSP 302,1,No,Male,21,Left,Yes,1,2020-10-05_10h32.11.341,kura-A1,2020.1.2,Win32,60,,,"[""space"",""space"",""space"",""space"",""space"",""space"",""space"",""space"",""space"",""space"",""space"",""space"",""space"",""space"",""space""]","[0.8387750000110827,1.4475050000182819,2.1764300000213552,3.042055000027176,3.827935000008438,4.758205000020098,5.722850000020117,6.65452500001993,7.471360000025015,8.266535000002477,8.872495000017807,9.470745000027819,10.110075000004144,10.760655000020051,11.443045000021812]",space,0.404215,0.0,26.0,26.0,1.0,1.0,,,,,,,,,,,,,
,,,,,,,,,,,block_1/strong_n_92_2.wav,no,n,strong,92.0,2.185421936,15.68737205,,,,Yes,EPOS Sennheiser GSP 302,1,No,Male,21,Left,Yes,1,2020-10-05_10h32.11.341,kura-A1,2020.1.2,Win32,60,,,"[""space"",""space"",""space"",""space"",""space"",""space"",""space"",""space"",""space"",""space"",""space"",""space"",""space"",""space"",""space"",""space"",""space"",""space"",""space"",""space""]","[0.5903150000085589,1.1778100000228733,1.9941950000065845,2.674780000001192,3.401884999999311,4.194054999999935,4.87811000001966,5.5150200000207406,6.229775000014342,6.949820000008913,7.837135000008857,8.280440000002272,9.002755000023171,9.696145000023535,10.390665000013541,11.106755000015255,11.836855000001378,12.484665000025416,13.141630000027362,13.939385000005132]",space,0.494445,0.0,27.0,27.0,39.0,1.0,,,,,,,,,,,,,
,,,,,,,,,,,block_1/weak_n_92_1.wav,no,n,weak,92.0,2.164314711,15.90903126,,,,Yes,EPOS Sennheiser GSP 302,1,No,Male,21,Left,Yes,1,2020-10-05_10h32.11.341,kura-A1,2020.1.2,Win32,60,,,"[""space"",""space"",""space"",""space"",""space"",""space"",""space"",""space"",""space"",""space"",""space"",""space"",""space"",""space"",""space"",""space"",""space"",""space"",""space""]","[0.9636199999949895,1.7285899999842513,2.3726299999980256,3.0535999999847263,3.7779649999865796,4.704120000009425,5.463545000005979,6.22657500000787,6.877104999992298,7.543804999993881,8.148209999984829,8.77651500000502,9.518509999994421,10.19417999999132,10.930919999984326,11.612610000011045,12.291735000006156,12.930675000010524,13.605899999995017]",space,0.415565,0.0,28.0,28.0,2.0,1.0,,,,,,,,,,,,,
,,,,,,,,,,,block_1/strong_n_81_1.wav,no,n,strong,81.0,1.003745174,15.96537783,,,,Yes,EPOS Sennheiser GSP 302,1,No,Male,21,Left,Yes,1,2020-10-05_10h32.11.341,kura-A1,2020.1.2,Win32,60,,,"[""space"",""space"",""space"",""space"",""space"",""space"",""space"",""space"",""space"",""space"",""space"",""space"",""space"",""space"",""space"",""space"",""space"",""space"",""space"",""space"",""space""]","[0.7318499999819323,1.2442399999999907,1.8385899999993853,2.588770000002114,3.356854999990901,4.059794999979204,4.741194999980507,5.46057500000461,6.3044799999915995,7.083709999977145,7.853559999988647,8.55624499998521,9.317729999980656,10.1003099999798,10.900055000005523,11.607664999988629,12.418000000005122,13.084145000000717,13.829830000002403,14.616439999983413,15.382549999980256]",space,0.42063,0.0,29.0,29.0,12.0,1.0,,,,,,,,,,,,,
,,,,,,,,,,,block_1/none_n_92_2.wav,no,n,none,92.0,1.514588051,14.14982615,,,,Yes,EPOS Sennheiser GSP 302,1,No,Male,21,Left,Yes,1,2020-10-05_10h32.11.341,kura-A1,2020.1.2,Win32,60,,,"[""space"",""space"",""space"",""space"",""space"",""space"",""space"",""space"",""space"",""space"",""space"",""space""]","[0.32800000000861473,1.3778799999854527,2.7064250000112224,3.7718799999856856,4.793449999997392,5.782344999985071,6.8629800000053365,8.015355000010459,9.0320950000023,10.271325000008801,11.183474999997998,12.720360000006622]",space,0.61209,0.0,30.0,30.0,23.0,1.0,,,,,,,,,,,,,
,,,,,,,,,,,block_1/strong_n_119_1.wav,no,n,strong,119.0,2.241065743,12.1104535,,,,Yes,EPOS Sennheiser GSP 302,1,No,Male,21,Left,Yes,1,2020-10-05_10h32.11.341,kura-A1,2020.1.2,Win32,60,,,"[""space"",""space"",""space"",""space"",""space"",""space"",""space"",""space"",""space"",""space"",""space"",""space"",""space"",""space"",""space"",""space"",""space"",""space"",""space"",""space""]","[0.5397399999783374,1.0446200000005774,1.467064999975264,1.8995299999951385,2.3477299999794923,2.8276499999919906,3.3193349999783095,3.8138449999969453,4.350639999989653,4.895309999992605,5.375649999972666,5.924209999997402,6.465994999976829,6.992454999999609,7.450154999998631,7.964194999978645,8.490234999975655,9.018274999980349,9.549354999995558,10.018899999995483]",space,0.496565,0.0,31.0,31.0,19.0,1.0,,,,,,,,,,,,,
,,,,,,,,,,,block_1/weak_n_119_2.wav,no,n,weak,119.0,2.480463378,12.4427763,,,,Yes,EPOS Sennheiser GSP 302,1,No,Male,21,Left,Yes,1,2020-10-05_10h32.11.341,kura-A1,2020.1.2,Win32,60,,,"[""space"",""space"",""space"",""space"",""space"",""space"",""space"",""space"",""space"",""space"",""space"",""space"",""space"",""space"",""space"",""space"",""space""]","[0.41634500000509433,0.9675899999856483,1.7157849999784958,2.31539000000339,3.194774999981746,3.987315000005765,4.739084999979241,5.31195000000298,5.953344999987166,6.521299999993062,6.960129999992205,7.4199399999924935,7.913134999980684,8.38541499999701,8.863794999982929,9.45589499999187,9.990649999992456]",space,0.438415,0.0,32.0,32.0,36.0,1.0,,,,,,,,,,,,,
,,,,,,,,,,,block_1/medium_n_81_1.wav,no,n,medium,81.0,1.755173496,15.75716896,,,,Yes,EPOS Sennheiser GSP 302,1,No,Male,21,Left,Yes,1,2020-10-05_10h32.11.341,kura-A1,2020.1.2,Win32,60,,,"[""space"",""space"",""space"",""space"",""space"",""space"",""space"",""space"",""space"",""space"",""space"",""space"",""space"",""space"",""space"",""space"",""space"",""space"",""space""]","[1.34407000002102,2.227080000011483,2.672775000013644,3.2621450000151526,3.89401000001817,4.554165000008652,5.400170000008075,6.2333000000217,6.73185999999987,7.4305200000235345,8.122305000026245,8.91466500001843,9.591415000002598,10.23851000002469,11.267025000008289,11.55604000002495,12.274245000007795,12.994505000009667,13.743820000003325]",space,0.414405,0.0,33.0,33.0,31.0,1.0,,,,,,,,,,,,,
,,,,,,,,,,,block_1/strong_n_119_2.wav,no,n,strong,119.0,2.088876798,11.35100832,,,,Yes,EPOS Sennheiser GSP 302,1,No,Male,21,Left,Yes,1,2020-10-05_10h32.11.341,kura-A1,2020.1.2,Win32,60,,,"[""space"",""space"",""space"",""space"",""space"",""space"",""space"",""space"",""space"",""space"",""space"",""space"",""space"",""space"",""space"",""space"",""space"",""space"",""space"",""space"",""space""]","[0.36457000000518747,0.8487800000002608,1.1723950000014156,1.5140300000202842,1.903149999998277,2.3495350000157487,2.8453450000088196,3.279995000018971,3.74693500000285,4.214334999996936,4.653240000014193,5.15179000000353,5.650645000016084,6.099610000004759,6.556834999995772,7.036835000006249,7.513120000017807,7.979590000002645,8.478854999993928,8.943679999996675,9.436650000017835]",space,0.49167,0.0,34.0,34.0,17.0,1.0,,,,,,,,,,,,,
,,,,,,,,,,,block_1/weak_n_92_2.wav,no,n,weak,92.0,1.763778337,14.00087584,,,,Yes,EPOS Sennheiser GSP 302,1,No,Male,21,Left,Yes,1,2020-10-05_10h32.11.341,kura-A1,2020.1.2,Win32,60,,,"[""space"",""space"",""space"",""space"",""space"",""space"",""space"",""space"",""space"",""space"",""space"",""space"",""space"",""space"",""space"",""space"",""space"",""space"",""space"",""space"",""space""]","[0.42458500000066124,0.8875750000006519,1.5028150000143796,2.127475000015693,2.7594000000099186,3.295635000016773,3.913460000010673,4.631840000016382,5.228595000022324,5.7774849999987055,6.384455000021262,7.002405000006547,7.535145000001648,8.180610000010347,8.775324999995064,9.335210000019288,9.920340000011493,10.546490000007907,11.15989000000991,11.767835000006016,12.487095000018599]",space,0.4312,0.0,35.0,35.0,6.0,1.0,,,,,,,,,,,,,
,,,,,,,,,,,block_1/strong_n_81_2.wav,no,n,strong,81.0,1.452361164,16.6150369,,,,Yes,EPOS Sennheiser GSP 302,1,No,Male,21,Left,Yes,1,2020-10-05_10h32.11.341,kura-A1,2020.1.2,Win32,60,,,"[""space"",""space"",""space"",""space"",""space"",""space"",""space"",""space"",""space"",""space"",""space"",""space"",""space"",""space"",""space"",""space"",""space"",""space"",""space"",""space"",""space""]","[0.6056549999921117,1.0374699999811128,1.8472599999804515,2.5824199999915436,3.3791999999957625,4.229779999994207,5.294620000000577,5.610060000006342,6.298989999981131,7.1231299999926705,7.942184999992605,9.050229999993462,9.511204999987967,10.183334999979706,10.938469999993686,11.740724999981467,12.486115000006976,13.242644999991171,13.9723449999874,14.79767499997979,15.504119999997783]",space,0.42851,0.0,36.0,36.0,8.0,1.0,,,,,,,,,,,,,
,,,,,,,,,,,block_1/medium_n_92_1.wav,no,n,medium,92.0,2.383742627,17.50115759,,,,Yes,EPOS Sennheiser GSP 302,1,No,Male,21,Left,Yes,1,2020-10-05_10h32.11.341,kura-A1,2020.1.2,Win32,60,,,"[""space"",""space"",""space"",""space"",""space"",""space"",""space"",""space"",""space"",""space"",""space"",""space"",""space"",""space"",""space"",""space"",""space"",""space"",""space""]","[0.3530699999828357,1.0864799999981187,1.9985199999937322,2.804355000000214,3.6030749999918044,4.409429999999702,5.224770000000717,6.005604999983916,6.81573999999091,7.554024999990361,8.337154999986524,9.177824999991572,9.9613749999844,10.765384999976959,11.612534999992931,12.356479999987641,13.188594999985071,13.940259999973932,14.738724999973783]",space,0.396325,0.0,37.0,37.0,5.0,1.0,,,,,,,,,,,,,
,,,,,,,,,,,block_1/none_n_72_2.wav,no,n,none,72.0,1.052198767,23.70630308,,,,Yes,EPOS Sennheiser GSP 302,1,No,Male,21,Left,Yes,1,2020-10-05_10h32.11.341,kura-A1,2020.1.2,Win32,60,,,"[""space"",""space"",""space"",""space"",""space"",""space"",""space"",""space"",""space"",""space"",""space"",""space"",""space"",""space"",""space"",""space"",""space"",""space"",""space"",""space"",""space"",""space"",""space"",""space"",""space"",""space"",""space"",""space"",""space"",""space"",""space"",""space"",""space"",""space"",""space"",""space"",""space"",""space"",""space"",""space"",""space""]","[0.42586000001756474,1.1546500000113156,2.154470000008587,3.0236100000038277,3.8184800000162795,4.74389000001247,5.639160000020638,6.532770000019809,7.364610000018729,7.735515000007581,7.894965000014054,8.176425000012387,8.584195000003092,9.102250000025379,9.626750000024913,10.21117000002414,10.817140000028303,11.445495000021765,12.058890000014799,12.533375000028173,13.109040000010282,13.573190000024624,13.982565000012983,14.328655000019353,14.813430000009248,15.213510000001406,15.574390000023413,15.807005000009667,16.22323500001221,16.793740000022808,17.37001500002225,17.933640000002924,18.45826000001398,19.045290000009118,19.593080000020564,20.154115000012098,20.697140000003856,21.169785000005504,21.708900000026915,22.181085000018356,22.609070000005886]",space,0.442085,0.0,38.0,38.0,16.0,1.0,,,,,,,,,,,,,
,,,,,,,,,,,block_1/medium_n_72_2.wav,no,n,medium,72.0,1.502389402,18.53467965,,,,Yes,EPOS Sennheiser GSP 302,1,No,Male,21,Left,Yes,1,2020-10-05_10h32.11.341,kura-A1,2020.1.2,Win32,60,,,"[""space"",""space"",""space"",""space"",""space"",""space"",""space"",""space"",""space"",""space"",""space"",""space"",""space"",""space"",""space"",""space"",""space"",""space"",""space""]","[0.6398200000112411,1.4406749999907333,2.3007400000060443,3.42643500000122,4.205080000014277,5.162474999990081,6.032425000012154,6.894925000000512,8.145424999995157,8.63549499999499,9.491470000008121,10.341890000010608,11.240049999993062,12.181769999995595,13.113745000009658,13.959995000011986,14.744124999997439,15.66499499999918,16.533155000011902]",space,0.374295,0.0,39.0,39.0,14.0,1.0,,,,,,,,,,,,,
,,,,,,,,,,,block_2/none_t_119_2.wav,timbre,t,none,119.0,1.129624063,11.70173291,,,,Yes,EPOS Sennheiser GSP 302,1,No,Male,21,Left,Yes,1,2020-10-05_10h32.11.341,kura-A1,2020.1.2,Win32,60,,,,,,,,,,,,space,12.457145,"[""space"",""space"",""space"",""space"",""space"",""space"",""space"",""space"",""space"",""space"",""space"",""space"",""space"",""space"",""space"",""space"",""space"",""space""]","[0.7313049999938812,1.4111550000088755,2.0452100000111386,2.6656249999941792,3.1686850000114646,3.749264999991283,4.269900000013877,4.879690000001574,5.406025000003865,5.897774999990361,6.431310000014491,6.9171450000139885,7.497665000002598,7.979484999988927,8.541560000012396,9.221160000015516,9.82740000000922,10.957930000004126]",space,2.032455,0.0,0.0,0.0,35.0,1.0,,
,,,,,,,,,,,block_2/weak_t_92_2.wav,timbre,t,weak,92.0,1.897128492,17.06302418,,,,Yes,EPOS Sennheiser GSP 302,1,No,Male,21,Left,Yes,1,2020-10-05_10h32.11.341,kura-A1,2020.1.2,Win32,60,,,,,,,,,,,,,,"[""space"",""space"",""space"",""space"",""space"",""space"",""space"",""space"",""space"",""space"",""space"",""space"",""space"",""space"",""space"",""space"",""space""]","[0.8679249999986496,1.4339150000014342,2.1806649999925867,2.891909999976633,3.602660000004107,4.353544999990845,5.145344999997178,5.871545000001788,6.745204999984708,7.56255499998224,10.069074999977602,10.730175000004238,11.557239999994636,12.366939999978058,13.194034999993164,13.98993499999051,14.785574999987148]",space,1.02799,0.0,1.0,1.0,37.0,1.0,,
,,,,,,,,,,,block_2/medium_t_92_2.wav,timbre,t,medium,92.0,2.383848972,15.42820271,,,,Yes,EPOS Sennheiser GSP 302,1,No,Male,21,Left,Yes,1,2020-10-05_10h32.11.341,kura-A1,2020.1.2,Win32,60,,,,,,,,,,,,,,"[""space"",""space"",""space"",""space"",""space"",""space"",""space"",""space"",""space"",""space"",""space"",""space"",""space"",""space"",""space"",""space"",""space"",""space"",""space"",""space""]","[0.7299700000148732,1.45633500002441,2.1645750000025146,2.932215000008,3.4756800000031944,4.0514750000147615,4.842745000001742,5.5125650000118185,6.200315000023693,6.981950000015786,7.6415950000227895,8.31315000000177,8.9702249999973,9.573495000018738,10.1971950000152,10.824470000021392,11.410870000021532,12.028165000025183,12.659560000000056,13.27775500001735]",space,1.18015,0.0,2.0,2.0,32.0,1.0,,
,,,,,,,,,,,block_2/none_t_72_2.wav,timbre,t,none,72.0,2.345629585,20.60318061,,,,Yes,EPOS Sennheiser GSP 302,1,No,Male,21,Left,Yes,1,2020-10-05_10h32.11.341,kura-A1,2020.1.2,Win32,60,,,,,,,,,,,,,,"[""space"",""space"",""space"",""space"",""space"",""space"",""space"",""space"",""space"",""space"",""space"",""space"",""space"",""space"",""space"",""space"",""space"",""space"",""space"",""space"",""space"",""space"",""space"",""space"",""space"",""space"",""space"",""space"",""space"",""space"",""space"",""space"",""space"",""space"",""space"",""space"",""space"",""space"",""space"",""space"",""space"",""space"",""space"",""space"",""space"",""space"",""space"",""space"",""space"",""space"",""space"",""space"",""space"",""space"",""space"",""space"",""space"",""space""]","[0.5027250000275671,1.1635700000042561,1.3731350000016391,1.5117400000162888,1.7212300000246614,2.0497100000211503,2.7031650000135414,3.2506300000241026,3.251090000005206,3.2753450000018347,3.4051950000284705,3.6317050000070594,3.8751800000027288,4.097045000002254,4.301075000024866,4.52262500001234,4.706145000003744,4.844105000025593,5.011720000009518,5.247340000001714,5.474715000018477,5.820300000021234,6.067145000008168,6.316945000027772,6.501435000012862,6.699350000009872,6.876100000023143,7.0692850000050385,7.264915000007022,7.554940000001807,7.745520000025863,8.01442500000121,8.36398000002373,8.651500000007218,8.965700000000652,9.302220000012312,9.73652000000584,10.10105000002659,10.499735000019427,10.99643000002834,11.55417500002659,12.084735000011278,12.59658500002115,12.99650500001735,13.480085000017425,13.934275000006892,14.388050000008661,14.851855000015348,15.27591000002576,15.71857500000624,16.212875000026543,16.64668000000529,17.012745000014547,17.259560000005877,17.53035000001546,17.77990000002319,18.10314500000095,18.366600000008475]",space,0.409005,0.0,3.0,3.0,21.0,1.0,,
,,,,,,,,,,,block_2/weak_t_72_1.wav,timbre,t,weak,72.0,1.161723604,18.236871,,,,Yes,EPOS Sennheiser GSP 302,1,No,Male,21,Left,Yes,1,2020-10-05_10h32.11.341,kura-A1,2020.1.2,Win32,60,,,,,,,,,,,,,,"[""space"",""space"",""space"",""space"",""space"",""space"",""space"",""space"",""space"",""space"",""space"",""space"",""space"",""space"",""space"",""space"",""space"",""space"",""space"",""space"",""space"",""space""]","[0.40331999998306856,1.0021299999789335,1.8181949999998324,2.6394649999856483,3.567814999987604,4.288969999994151,5.060670000006212,5.715449999988778,6.397644999990007,7.0816349999804515,7.752435000002151,8.440834999986691,9.047889999987092,9.73659499999485,10.455919999978505,11.29004999998142,12.428909999987809,13.33632000000216,13.979649999993853,14.681214999989606,15.431030000007013,16.289339999988442]",space,0.56703,0.0,4.0,4.0,29.0,1.0,,
,,,,,,,,,,,block_2/strong_t_81_2.wav,timbre,t,strong,81.0,1.682183604,15.83846478,,,,Yes,EPOS Sennheiser GSP 302,1,No,Male,21,Left,Yes,1,2020-10-05_10h32.11.341,kura-A1,2020.1.2,Win32,60,,,,,,,,,,,,,,"[""space"",""space"",""space"",""space"",""space"",""space"",""space"",""space"",""space"",""space"",""space"",""space"",""space"",""space"",""space"",""space"",""space"",""space"",""space"",""space"",""space""]","[0.4306499999947846,1.0512300000118557,1.5368250000174157,2.221510000003036,2.92170000000624,3.60964999999851,4.3236850000103,5.057105000014417,5.780515000020387,6.48048500000732,7.162225000007311,7.893020000017714,8.649579999997513,9.409474999993108,10.17135000001872,10.877559999993537,11.60985000000801,12.287524999992456,13.03349000000162,13.81287500000326,14.52178000001004]",space,0.492995,0.0,5.0,5.0,26.0,1.0,,
,,,,,,,,,,,block_2/strong_t_72_1.wav,timbre,t,strong,72.0,1.104397067,17.67881884,,,,Yes,EPOS Sennheiser GSP 302,1,No,Male,21,Left,Yes,1,2020-10-05_10h32.11.341,kura-A1,2020.1.2,Win32,60,,,,,,,,,,,,,,"[""space"",""space"",""space"",""space"",""space"",""space"",""space"",""space"",""space"",""space"",""space"",""space"",""space"",""space"",""space"",""space"",""space"",""space"",""space"",""space"",""space""]","[0.8550049999903422,1.3056550000037532,2.203704999992624,3.000820000015665,3.851584999996703,4.688610000011977,5.4375,6.301840000000084,7.160804999992251,7.99147500001709,8.75169500001357,9.548815000016475,10.45738999999594,11.221079999988433,12.008219999988796,12.822400000004563,13.655534999998054,14.451590000011493,15.285195000004023,16.124970000004396,16.97211000000243]",space,0.418475,0.0,6.0,6.0,9.0,1.0,,
,,,,,,,,,,,block_2/medium_t_119_1.wav,timbre,t,medium,119.0,2.133191859,13.15799912,,,,Yes,EPOS Sennheiser GSP 302,1,No,Male,21,Left,Yes,1,2020-10-05_10h32.11.341,kura-A1,2020.1.2,Win32,60,,,,,,,,,,,,,,"[""space"",""space"",""space"",""space"",""space"",""space"",""space"",""space"",""space"",""space"",""space"",""space"",""space"",""space"",""space"",""space"",""space"",""space"",""space"",""space""]","[0.6222450000059325,1.1799549999996088,1.87255999998888,2.3684050000156276,2.83941000001505,3.367230000003474,3.943410000007134,4.511124999989988,5.131965000007767,5.711054999992484,6.227459999994608,6.824495000008028,7.398589999997057,7.963055000000168,8.463944999995874,8.965490000002319,9.560915000009118,10.133124999993015,10.70407000000705,11.222730000008596]",space,0.44318,0.0,7.0,7.0,34.0,1.0,,
,,,,,,,,,,,block_2/medium_t_105_2.wav,timbre,t,medium,105.0,1.583239388,12.36101717,,,,Yes,EPOS Sennheiser GSP 302,1,No,Male,21,Left,Yes,1,2020-10-05_10h32.11.341,kura-A1,2020.1.2,Win32,60,,,,,,,,,,,,,,"[""space"",""space"",""space"",""space"",""space"",""space"",""space"",""space"",""space"",""space"",""space"",""space"",""space"",""space"",""space"",""space"",""space"",""space"",""space"",""space""]","[0.3950650000188034,0.919064999994589,1.447054999996908,2.0094950000056997,2.5578500000119675,3.054355000000214,3.6021100000070874,4.185759999993024,4.7253900000068825,5.247640000015963,5.857179999991786,6.413065000000643,7.02250500000082,7.602725000004284,8.168315000017174,8.7147399999958,9.30926000000909,9.911605000001146,10.445355000003474,11.027390000002924]",space,0.41319,0.0,8.0,8.0,19.0,1.0,,
,,,,,,,,,,,block_2/weak_t_81_1.wav,timbre,t,weak,81.0,1.591601339,16.65690746,,,,Yes,EPOS Sennheiser GSP 302,1,No,Male,21,Left,Yes,1,2020-10-05_10h32.11.341,kura-A1,2020.1.2,Win32,60,,,,,,,,,,,,,,"[""space"",""space"",""space"",""space"",""space"",""space"",""space"",""space"",""space"",""space"",""space"",""space"",""space"",""space"",""space"",""space"",""space"",""space"",""space"",""space"",""space"",""space"",""space"",""space"",""space"",""space"",""space"",""space"",""space"",""space"",""space"",""space"",""space"",""space""]","[0.42519999999785796,1.0296200000157114,1.6200400000088848,2.1834600000001956,2.803619999991497,3.4573350000136998,4.066655000002356,4.908809999993537,5.338439999992261,6.099790000007488,6.855704999994487,8.03249000001233,8.459035000007134,8.894659999990836,9.082350000011502,9.190009999991162,9.460135000001173,10.138750000012806,10.13980000000447,10.158809999993537,10.36207000000286,10.574645000015153,10.777915000013309,11.02524000001722,11.207324999995762,11.403070000000298,12.08290500001749,12.679089999990538,13.204360000003362,13.872629999998026,14.417249999998603,14.930909999995492,15.227340000012191,15.380420000001322]",space,0.71555,0.0,9.0,9.0,8.0,1.0,,
,,,,,,,,,,,block_2/weak_t_105_1.wav,timbre,t,weak,105.0,2.340100097,14.83112051,,,,Yes,EPOS Sennheiser GSP 302,1,No,Male,21,Left,Yes,1,2020-10-05_10h32.11.341,kura-A1,2020.1.2,Win32,60,,,,,,,,,,,,,,"[""space"",""space"",""space"",""space"",""space"",""space"",""space"",""space"",""space"",""space"",""space"",""space"",""space"",""space"",""space"",""space"",""space"",""space"",""space""]","[0.3821049999969546,1.0294399999838788,1.7115449999982957,2.4355349999968894,3.1508449999964796,3.9017900000035297,4.560599999997066,5.161869999981718,5.774314999987837,6.4061149999906775,7.022874999995111,7.734659999987343,8.350819999992382,8.969444999995176,9.606629999994766,10.240554999996675,10.952209999988554,11.583270000002813,12.19415999998455]",space,0.347705,0.0,10.0,10.0,0.0,1.0,,
,,,,,,,,,,,block_2/strong_t_119_2.wav,timbre,t,strong,119.0,1.752168489,11.36699842,,,,Yes,EPOS Sennheiser GSP 302,1,No,Male,21,Left,Yes,1,2020-10-05_10h32.11.341,kura-A1,2020.1.2,Win32,60,,,,,,,,,,,,,,"[""space"",""space"",""space"",""space"",""space"",""space"",""space"",""space"",""space"",""space"",""space"",""space"",""space"",""space"",""space"",""space"",""space"",""space"",""space"",""space"",""space""]","[0.4281450000125915,0.8126899999915622,1.1597149999870453,1.5268050000013318,1.9560899999924004,2.4232450000126846,2.9067449999856763,3.4009899999946356,3.909545000002254,4.374849999992875,4.852340000012191,5.341394999995828,5.815065000002505,6.3298350000113714,6.797835000004852,7.312414999993052,7.756644999986747,8.27763500000583,8.795834999997169,9.260015000007115,9.750754999986384]",space,0.41199,0.0,11.0,11.0,31.0,1.0,,
,,,,,,,,,,,block_2/medium_t_81_1.wav,timbre,t,medium,81.0,1.868021577,16.02697849,,,,Yes,EPOS Sennheiser GSP 302,1,No,Male,21,Left,Yes,1,2020-10-05_10h32.11.341,kura-A1,2020.1.2,Win32,60,,,,,,,,,,,,,,"[""space"",""space"",""space"",""space"",""space"",""space"",""space"",""space"",""space"",""space"",""space"",""space"",""space"",""space"",""space"",""space"",""space"",""space"",""space""]","[0.6634199999971315,1.2087100000062492,1.9244900000048801,2.6587900000158697,3.7365050000080373,4.130295000009937,4.813010000012582,5.5262649999931455,6.292860000015935,6.997235000017099,7.73420000000624,8.485480000003008,9.281914999999572,9.981419999996433,10.76956000001519,11.545780000014929,12.226809999992838,13.015885000000708,13.71561000001384]",space,0.327615,0.0,12.0,12.0,4.0,1.0,,
,,,,,,,,,,,block_2/weak_t_119_1.wav,timbre,t,weak,119.0,2.44047477,12.74986253,,,,Yes,EPOS Sennheiser GSP 302,1,No,Male,21,Left,Yes,1,2020-10-05_10h32.11.341,kura-A1,2020.1.2,Win32,60,,,,,,,,,,,,,,"[""space"",""space"",""space"",""space"",""space"",""space"",""space"",""space"",""space"",""space"",""space"",""space"",""space"",""space"",""space"",""space"",""space"",""space"",""space"",""space"",""space"",""space"",""space"",""space"",""space"",""space"",""space""]","[0.36290499998722225,0.7548599999863654,1.0541749999974854,1.251044999982696,1.514919999986887,1.6951199999894015,2.489340000000084,2.6275150000001304,3.0620249999919906,3.5263599999889266,3.983364999992773,4.443895000003977,4.969270000001416,5.474690000002738,5.987574999977369,6.476834999979474,6.9740900000033434,7.43293999999878,7.963279999996303,8.38670999999158,8.588289999985136,8.787024999997811,8.999144999979762,9.166154999984428,9.516294999979436,9.713430000003427,10.075734999991255]",space,8.947235,0.0,13.0,13.0,12.0,1.0,,
,,,,,,,,,,,block_2/medium_t_72_1.wav,timbre,t,medium,72.0,1.800053144,19.08504181,,,,Yes,EPOS Sennheiser GSP 302,1,No,Male,21,Left,Yes,1,2020-10-05_10h32.11.341,kura-A1,2020.1.2,Win32,60,,,,,,,,,,,,,,"[""space"",""space"",""space"",""space"",""space"",""space"",""space"",""space"",""space"",""space"",""space"",""space"",""space"",""space"",""space"",""space"",""space"",""space"",""space"",""space"",""space"",""space""]","[0.44041999999899417,0.9700200000079349,1.6295200000167824,2.439205000002403,3.214460000017425,4.080054999998538,4.965930000005756,5.747065000003204,6.574460000003455,7.477425000019139,8.279215000016848,9.06411500001559,9.897519999998622,10.663100000005215,11.45138000001316,12.225535000005038,13.03802999999607,13.903260000020964,14.736735000013141,15.617800000007264,16.390160000009928,17.315065000002505]",space,0.41101,0.0,14.0,14.0,24.0,1.0,,
,,,,,,,,,,,block_2/weak_t_92_1.wav,timbre,t,weak,92.0,1.077881565,14.47407204,,,,Yes,EPOS Sennheiser GSP 302,1,No,Male,21,Left,Yes,1,2020-10-05_10h32.11.341,kura-A1,2020.1.2,Win32,60,,,,,,,,,,,,,,"[""space"",""space"",""space"",""space"",""space"",""space"",""space"",""space"",""space"",""space"",""space"",""space"",""space"",""space"",""space"",""space"",""space"",""space"",""space"",""space"",""space""]","[0.45236499997554347,1.1828249999962281,1.7421449999965262,2.3835199999739416,3.284574999997858,3.825329999992391,4.540399999998044,5.245784999977332,5.8807899999956135,6.509489999996731,7.086394999991171,7.798274999979185,8.43490500000189,9.07309499999974,9.66384999998263,10.28448999999091,10.942294999986188,11.589724999997998,12.390294999990147,13.224819999973988,13.554529999993974]",space,0.640685,0.0,15.0,15.0,33.0,1.0,,
,,,,,,,,,,,block_2/weak_t_105_2.wav,timbre,t,weak,105.0,2.1216156,16.06451809,,,,Yes,EPOS Sennheiser GSP 302,1,No,Male,21,Left,Yes,1,2020-10-05_10h32.11.341,kura-A1,2020.1.2,Win32,60,,,,,,,,,,,,,,"[""space"",""space"",""space"",""space"",""space"",""space"",""space"",""space"",""space"",""space"",""space"",""space"",""space"",""space"",""space"",""space"",""space"",""space"",""space"",""space"",""space"",""space"",""space"",""space"",""space""]","[0.4177250000066124,1.0977199999906588,1.724034999992,2.4245499999960884,3.0502749999868684,3.745070000004489,4.425759999983711,5.190054999984568,5.8094099999871105,6.465274999995017,7.188555000000633,7.834975000005215,8.50605500000529,9.141219999990426,9.842325000005076,10.816304999985732,11.192929999990156,11.829364999983227,12.540435000002617,12.914749999996275,13.30771999998251,13.411410000000615,13.692259999981616,13.887640000000829,14.11259499998414]",space,0.41845,0.0,16.0,16.0,2.0,1.0,,
,,,,,,,,,,,block_2/medium_t_105_1.wav,timbre,t,medium,105.0,1.073604292,13.26340021,,,,Yes,EPOS Sennheiser GSP 302,1,No,Male,21,Left,Yes,1,2020-10-05_10h32.11.341,kura-A1,2020.1.2,Win32,60,,,,,,,,,,,,,,"[""space"",""space"",""space"",""space"",""space"",""space"",""space"",""space"",""space"",""space"",""space"",""space"",""space"",""space"",""space"",""space"",""space"",""space"",""space"",""space""]","[0.7231349999783561,1.3997249999956694,1.9719000000040978,2.5589399999880698,3.12106499998481,3.6496399999887217,4.200279999990016,4.768099999986589,5.340555000002496,5.919839999987744,6.49394499999471,7.095279999979539,7.7173299999849405,8.327170000004116,8.93179499998223,9.628375000000233,10.327499999984866,11.339184999989811,11.678924999985611,12.329884999984642]",space,0.42367,0.0,17.0,17.0,16.0,1.0,,
,,,,,,,,,,,block_2/medium_t_72_2.wav,timbre,t,medium,72.0,1.613581299,18.7474135,,,,Yes,EPOS Sennheiser GSP 302,1,No,Male,21,Left,Yes,1,2020-10-05_10h32.11.341,kura-A1,2020.1.2,Win32,60,,,,,,,,,,,,,,"[""space"",""space"",""space"",""space"",""space"",""space"",""space"",""space"",""space"",""space"",""space"",""space"",""space"",""space"",""space"",""space"",""space"",""space"",""space"",""space""]","[0.7930049999849871,1.072649999987334,1.6895599999988917,2.4352450000005774,3.2734199999831617,4.193490000005113,5.118459999997867,5.941484999988461,6.878469999996014,7.817320000001928,8.685070000006817,9.608379999990575,10.469859999982873,11.368935000005877,12.29017500000191,13.126785000000382,14.028484999987995,14.832889999990584,15.647785000008298,16.58441499999026]",space,0.314575,0.0,18.0,18.0,28.0,1.0,,
,,,,,,,,,,,block_2/none_t_119_1.wav,timbre,t,none,119.0,1.241510023,14.60305197,,,,Yes,EPOS Sennheiser GSP 302,1,No,Male,21,Left,Yes,1,2020-10-05_10h32.11.341,kura-A1,2020.1.2,Win32,60,,,,,,,,,,,,,,"[""space"",""space"",""space"",""space"",""space"",""space"",""space"",""space"",""space"",""space"",""space"",""space"",""space"",""space"",""space"",""space"",""space"",""space"",""space"",""space"",""space"",""space"",""space"",""space"",""space"",""space"",""space"",""space"",""space"",""space"",""space"",""space""]","[0.30738000001292676,1.1328800000192132,1.6317700000072364,1.956145000003744,2.3279400000174064,2.7081450000114273,3.048850000021048,3.4633750000211876,3.9132150000077672,4.640065000014147,4.896970000001602,5.367790000018431,5.773820000002161,6.208264999993844,6.604985000012675,7.02345000000787,7.4136750000179745,7.811799999995856,8.1893900000141,8.56463999999687,8.949870000011288,9.291855000017677,9.683359999995446,10.07386500001303,10.444264999998268,10.81997500002035,11.233365000021877,11.657895000011194,12.04318500001682,12.7225599999947,12.8891500000027,13.332540000003064]",space,0.339355,0.0,19.0,19.0,39.0,1.0,,
,,,,,,,,,,,block_2/strong_t_81_1.wav,timbre,t,strong,81.0,1.294160312,15.54953446,,,,Yes,EPOS Sennheiser GSP 302,1,No,Male,21,Left,Yes,1,2020-10-05_10h32.11.341,kura-A1,2020.1.2,Win32,60,,,,,,,,,,,,,,"[""space"",""space"",""space"",""space"",""space"",""space"",""space"",""space"",""space"",""space"",""space"",""space"",""space"",""space"",""space"",""space"",""space"",""space"",""space"",""space"",""space""]","[0.5898400000005495,1.0816900000208989,1.6664000000164378,2.3366700000187848,3.1145550000073854,3.826760000025388,4.629475000023376,5.2197350000205915,5.97370500001125,6.641125000023749,7.395340000017313,8.189395000023069,8.779095000005327,9.446815000002971,10.182945000007749,10.920070000021951,11.595105000014883,12.341090000001714,13.118535000015981,13.767100000026403,14.520535000017844]",space,0.38462,0.0,20.0,20.0,30.0,1.0,,
,,,,,,,,,,,block_2/none_t_105_2.wav,timbre,t,none,105.0,1.468449628,14.54844963,,,,Yes,EPOS Sennheiser GSP 302,1,No,Male,21,Left,Yes,1,2020-10-05_10h32.11.341,kura-A1,2020.1.2,Win32,60,,,,,,,,,,,,,,"[""space"",""space"",""space"",""space"",""space"",""space"",""space"",""space"",""space"",""space"",""space"",""space"",""space"",""space"",""space"",""space"",""space"",""space"",""space"",""space"",""space"",""space"",""space"",""space"",""space"",""space"",""space"",""space"",""space"",""space"",""space"",""space"",""space"",""space"",""space"",""space"",""space"",""space"",""space"",""space"",""space"",""space"",""space"",""space"",""space"",""space"",""space"",""space""]","[0.3714299999992363,0.824159999989206,1.049830000003567,1.6227249999938067,1.623250000004191,1.7224099999875762,2.693459999980405,3.2212449999933597,3.221739999979036,3.2768899999791756,3.4537600000039674,3.67788499998278,3.871454999985872,4.044209999992745,4.269529999990482,4.456754999991972,4.674904999992577,4.825004999991506,5.015014999982668,5.204054999980144,5.370314999978291,5.572820000001229,5.818589999980759,6.027344999980414,8.024030000000494,8.375599999999395,8.492454999999609,8.693459999980405,9.01198999999906,9.21294999998645,9.34464999998454,9.530869999987772,9.653974999993807,9.83694499998819,10.03234999999404,10.318129999999655,10.63960500000394,11.425445000000764,11.61418999999296,11.77182999998331,12.064454999985173,12.250854999991134,12.410680000000866,12.57241999998223,12.771989999979269,12.959759999997914,13.1412699999928,13.34328000000096]",space,0.40134,0.0,21.0,21.0,14.0,1.0,,
,,,,,,,,,,,block_2/strong_t_92_2.wav,timbre,t,strong,92.0,2.142189268,15.39026183,,,,Yes,EPOS Sennheiser GSP 302,1,No,Male,21,Left,Yes,1,2020-10-05_10h32.11.341,kura-A1,2020.1.2,Win32,60,,,,,,,,,,,,,,"[""space"",""space"",""space"",""space"",""space"",""space"",""space"",""space"",""space"",""space"",""space"",""space"",""space"",""space"",""space"",""space"",""space"",""space"",""space"",""space"",""space""]","[0.4972050000214949,0.98270500000217,1.4497250000131316,2.079105000011623,2.6416000000026543,3.2651200000254903,3.9347650000127032,4.649245000007795,5.300845000019763,6.265704999997979,6.652224999997998,7.335265000001527,7.979110000014771,8.664669999998296,9.343020000000251,10.034380000026431,10.731520000001183,11.3621100000164,12.432760000025155,12.690220000018599,13.399150000012014]",space,0.577915,0.0,22.0,22.0,3.0,1.0,,
,,,,,,,,,,,block_2/none_t_81_2.wav,timbre,t,none,81.0,2.376288721,21.12975811,,,,Yes,EPOS Sennheiser GSP 302,1,No,Male,21,Left,Yes,1,2020-10-05_10h32.11.341,kura-A1,2020.1.2,Win32,60,,,,,,,,,,,,,,"[""space"",""space"",""space"",""space"",""space"",""space"",""space"",""space"",""space"",""space"",""space"",""space"",""space"",""space"",""space"",""space"",""space"",""space"",""space"",""space"",""space"",""space"",""space"",""space"",""space"",""space"",""space"",""space"",""space"",""space"",""space"",""space"",""space"",""space"",""space"",""space"",""space"",""space"",""space"",""space"",""space"",""space"",""space"",""space"",""space"",""space"",""space"",""space"",""space"",""space"",""space"",""space"",""space"",""space"",""space"",""space"",""space"",""space"",""space"",""space"",""space"",""space"",""space"",""space"",""space"",""space"",""space"",""space"",""space"",""space"",""space"",""space"",""space"",""space""]","[0.5474849999882281,1.2008399999758694,1.7554899999813642,2.0577199999825098,2.307744999998249,2.5944149999995716,2.935924999997951,3.1253599999763537,3.3283899999805726,3.5628250000008848,3.767549999989569,3.979619999998249,4.2174749999830965,4.3960450000013225,4.568549999996321,4.81666499999119,5.230649999983143,6.154649999982212,6.552369999990333,6.769184999982826,6.96020000000135,7.198019999981625,7.384389999991981,7.5899199999985285,8.215629999991506,8.426979999989271,9.083969999977853,9.290254999999888,9.486579999997048,9.671889999997802,9.857079999987036,10.062374999979511,10.260324999981094,10.483580000000075,10.657565000001341,10.841734999994515,10.995479999983218,11.2012349999859,11.392475000000559,11.586264999990817,11.79468999998062,12.37068999998155,12.391489999979967,12.391709999996237,12.611434999998892,12.819839999981923,13.015654999995604,13.200599999981932,13.532394999987446,13.74524499999825,13.907069999986561,14.170644999976503,14.577359999995679,14.760204999998678,14.969259999983478,15.140919999976177,15.328369999973802,15.553449999977602,15.733149999985471,15.896699999982957,16.082074999983888,16.284799999993993,16.47245999998995,16.695329999987734,16.881139999983134,17.291180000000168,17.48015999997733,17.71154999997816,17.916034999972908,18.115399999980582,18.32402000000002,18.528204999980517,18.74708999998984,18.96184499998344]",space,0.62352,0.0,23.0,23.0,10.0,1.0,,
,,,,,,,,,,,block_2/medium_t_92_1.wav,timbre,t,medium,92.0,1.649670592,15.35429644,,,,Yes,EPOS Sennheiser GSP 302,1,No,Male,21,Left,Yes,1,2020-10-05_10h32.11.341,kura-A1,2020.1.2,Win32,60,,,,,,,,,,,,,,"[""space"",""space"",""space"",""space"",""space"",""space"",""space"",""space"",""space"",""space"",""space"",""space"",""space"",""space"",""space"",""space"",""space"",""space"",""space"",""space""]","[0.44826999999349937,1.0287700000044424,1.7216199999966193,2.4131599999964237,3.1267400000069756,3.854284999979427,4.589680000004591,5.358974999981001,6.1611249999841675,6.7981999999901745,7.4456199999840464,8.252739999996265,8.950290000007953,9.692825000005541,10.43719999998575,11.100745000003371,11.750889999995707,12.549904999992577,13.213784999999916,13.879409999994095]",space,0.342615,0.0,24.0,24.0,36.0,1.0,,
,,,,,,,,,,,block_2/medium_t_81_2.wav,timbre,t,medium,81.0,1.338539444,16.50597709,,,,Yes,EPOS Sennheiser GSP 302,1,No,Male,21,Left,Yes,1,2020-10-05_10h32.11.341,kura-A1,2020.1.2,Win32,60,,,,,,,,,,,,,,"[""space"",""space"",""space"",""space"",""space"",""space"",""space"",""space"",""space"",""space"",""space"",""space"",""space"",""space"",""space"",""space"",""space"",""space"",""space"",""space"",""space""]","[0.41854500002227724,1.1577200000174344,1.8867000000027474,2.614400000020396,3.4216700000106357,4.168415000021923,5.012465000007069,5.829635000001872,6.656090000004042,7.453440000012051,8.26437500002794,8.974425000022165,9.845595000020694,10.61667500002659,11.069589999999152,12.262165000021923,12.33844500000123,13.02486500001396,13.880690000019968,14.637420000013663,15.489835000014864]",space,0.45388,0.0,25.0,25.0,7.0,1.0,,
,,,,,,,,,,,block_2/none_t_92_2.wav,timbre,t,none,92.0,1.981316359,18.5242642,,,,Yes,EPOS Sennheiser GSP 302,1,No,Male,21,Left,Yes,1,2020-10-05_10h32.11.341,kura-A1,2020.1.2,Win32,60,,,,,,,,,,,,,,"[""space"",""space"",""space"",""space"",""space"",""space"",""space"",""space"",""space"",""space"",""space"",""space"",""space"",""space"",""space"",""space"",""space"",""space"",""space"",""space"",""space"",""space"",""space"",""space"",""space"",""space"",""space"",""space"",""space"",""space"",""space"",""space"",""space"",""space"",""space"",""space"",""space"",""space"",""space"",""space"",""space"",""space"",""space"",""space"",""space"",""space""]","[0.16858500000671484,0.3720150000008289,0.6633199999923818,1.8951649999944493,2.524600000004284,3.0802700000058394,3.582764999999199,4.194394999998622,4.974820000003092,5.442654999991646,6.361095000000205,6.496129999984987,7.128259999997681,7.62644999998156,8.16584000000148,8.71463999999105,9.26385499999742,9.764674999983981,10.231139999988955,10.647924999997485,10.916559999983292,11.119370000000345,11.301550000003772,11.499089999997523,11.707055000006221,11.98399999999674,12.2001600000076,12.455379999999423,12.711204999999609,12.983059999998659,13.263019999983953,13.521439999982249,13.71197000000393,13.94741999998223,14.147620000003371,14.421505000005709,14.680384999985108,14.930330000002868,15.139609999983804,15.374569999985397,15.674079999997048,15.911430000007385,16.144399999990128,16.46623499999987,16.665574999991804,16.863624999998137]",space,0.333665,0.0,26.0,26.0,18.0,1.0,,
,,,,,,,,,,,block_2/strong_t_92_1.wav,timbre,t,strong,92.0,2.398655974,13.52958568,,,,Yes,EPOS Sennheiser GSP 302,1,No,Male,21,Left,Yes,1,2020-10-05_10h32.11.341,kura-A1,2020.1.2,Win32,60,,,,,,,,,,,,,,"[""space"",""space"",""space"",""space"",""space"",""space"",""space"",""space"",""space"",""space"",""space"",""space"",""space"",""space"",""space"",""space"",""space"",""space"",""space"",""space""]","[0.5396450000116602,1.0034000000159722,1.547500000015134,2.1379050000105053,2.7307399999990594,3.2164000000047963,3.8161800000234507,4.37009000001126,4.9518500000122,5.491445000021486,6.056175000005169,6.647225000022445,7.243685000023106,7.80472000001464,8.443425000004936,9.02911000000313,9.57119500002591,10.099560000002384,10.665000000008149,11.24967000001925]",space,0.433025,0.0,27.0,27.0,1.0,1.0,,
,,,,,,,,,,,block_2/weak_t_72_2.wav,timbre,t,weak,72.0,2.280914128,17.55202524,,,,Yes,EPOS Sennheiser GSP 302,1,No,Male,21,Left,Yes,1,2020-10-05_10h32.11.341,kura-A1,2020.1.2,Win32,60,,,,,,,,,,,,,,"[""space"",""space"",""space"",""space"",""space"",""space"",""space"",""space"",""space"",""space"",""space"",""space"",""space"",""space"",""space"",""space"",""space"",""space"",""space"",""space"",""space"",""space"",""space"",""space"",""space"",""space"",""space""]","[0.4134349999949336,0.9872200000099838,1.4235249999910593,1.761384999990696,2.016860000003362,2.5917049999989104,3.197420000011334,3.6213799999968614,4.224929999996675,4.8839049999951385,5.59001499999431,6.337900000013178,7.043665000004694,7.691749999998137,8.350839999999152,9.012170000001788,9.732370000012452,10.446320000017295,11.058714999991935,11.538740000018151,12.076579999993555,12.532240000000456,12.982244999991963,13.471205000008922,13.940204999991693,14.508224999997765,15.10631000000285]",space,0.389915,0.0,28.0,28.0,25.0,1.0,,
,,,,,,,,,,,block_2/weak_t_119_2.wav,timbre,t,weak,119.0,2.381776461,12.65062,,,,Yes,EPOS Sennheiser GSP 302,1,No,Male,21,Left,Yes,1,2020-10-05_10h32.11.341,kura-A1,2020.1.2,Win32,60,,,,,,,,,,,,,,"[""space"",""space"",""space"",""space"",""space"",""space"",""space"",""space"",""space"",""space"",""space"",""space"",""space"",""space"",""space"",""space"",""space"",""space"",""space"",""space"",""space"",""space"",""space"",""space"",""space"",""space"",""space"",""space"",""space"",""space"",""space"",""space"",""space"",""space"",""space"",""space"",""space""]","[0.38015499999164604,0.930274999991525,1.1217499999911524,1.8165199999930337,1.8388149999955203,1.8397499999846332,1.8404849999933504,2.1407900000049267,2.437065000005532,2.61204499998712,2.8053349999827333,2.9517650000052527,3.0294449999928474,3.210785000002943,3.404229999985546,3.611749999981839,3.7566700000024866,3.8991300000052433,4.083044999977574,4.231964999984484,4.426414999994449,4.690359999978682,4.872749999980442,5.120939999993425,5.525280000001658,5.930064999993192,6.413009999989299,6.816324999992503,7.233334999997169,7.688709999987623,8.130074999993667,8.528395000001183,8.879929999995511,9.218939999991562,9.544229999999516,9.912029999977676,10.297809999989113]",space,0.385065,0.0,29.0,29.0,13.0,1.0,,
,,,,,,,,,,,block_2/strong_t_72_2.wav,timbre,t,strong,72.0,2.404328943,17.8229684,,,,Yes,EPOS Sennheiser GSP 302,1,No,Male,21,Left,Yes,1,2020-10-05_10h32.11.341,kura-A1,2020.1.2,Win32,60,,,,,,,,,,,,,,"[""space"",""space"",""space"",""space"",""space"",""space"",""space"",""space"",""space"",""space"",""space"",""space"",""space"",""space"",""space"",""space"",""space"",""space"",""space"",""space"",""space""]","[0.41208999999798834,0.9929350000165869,1.5005100000125822,2.2650049999938346,3.1097650000010617,3.9363350000057835,4.680989999993471,5.540455000009388,6.344089999998687,7.092225000000326,7.8931699999957345,8.664179999992484,9.38302500001737,10.17319500001031,10.99272499998915,11.856655000010505,12.641579999995884,13.408960000000661,14.372015000000829,14.987120000005234,15.740565000014612]",space,0.347875,0.0,30.0,30.0,6.0,1.0,,
,,,,,,,,,,,block_2/none_t_81_1.wav,timbre,t,none,81.0,1.797175978,16.13359321,,,,Yes,EPOS Sennheiser GSP 302,1,No,Male,21,Left,Yes,1,2020-10-05_10h32.11.341,kura-A1,2020.1.2,Win32,60,,,,,,,,,,,,,,"[""space"",""space"",""space"",""space"",""space"",""space"",""space"",""space"",""space"",""space"",""space"",""space"",""space"",""space"",""space"",""space"",""space"",""space"",""space"",""space"",""space"",""space"",""space"",""space"",""space"",""space"",""space"",""space"",""space"",""space"",""space"",""space"",""space"",""space"",""space"",""space"",""space"",""space"",""space"",""space"",""space"",""space"",""space"",""space"",""space"",""space"",""space"",""space"",""space"",""space"",""space"",""space"",""space"",""space"",""space"",""space"",""space"",""space"",""space""]","[0.5033649999822956,0.9429299999901559,1.3898599999956787,1.8014449999900535,2.2110199999879114,2.5839149999956135,2.9693699999770615,3.4009449999721255,3.6756599999789614,3.877489999984391,4.062344999983907,4.266849999985425,4.389229999971576,4.639264999976149,4.8422499999869615,5.006154999980936,5.214284999994561,5.43468499998562,5.655294999975013,5.861114999977872,6.069024999975227,6.325029999978142,6.592984999995679,6.798009999998612,7.017579999985173,7.22124499999336,7.601874999993015,7.776224999979604,7.95001499998034,8.116790000000037,8.285699999978533,8.67147999998997,8.841649999987567,9.061054999998305,9.229214999999385,9.3982299999916,9.517774999985704,9.90956499997992,10.11518499997328,10.25331499997992,10.534554999991087,10.70913499998278,10.915039999992587,11.084679999999935,11.244944999984,11.456319999997504,11.573014999972656,11.73963499997626,11.933344999997644,12.141179999976885,12.326469999999972,12.524124999996275,12.70133499999065,12.905144999996992,13.111454999976559,13.27998499997193,13.432444999984,13.597184999991441,13.937209999974584]",space,0.34861,0.0,31.0,31.0,11.0,1.0,,
,,,,,,,,,,,block_2/strong_t_105_1.wav,timbre,t,strong,105.0,2.348438476,14.79111421,,,,Yes,EPOS Sennheiser GSP 302,1,No,Male,21,Left,Yes,1,2020-10-05_10h32.11.341,kura-A1,2020.1.2,Win32,60,,,,,,,,,,,,,,"[""space"",""space"",""space"",""space"",""space"",""space"",""space"",""space"",""space"",""space"",""space"",""space"",""space"",""space"",""space"",""space"",""space"",""space"",""space"",""space""]","[0.545429999998305,1.0381999999808613,1.6938199999858625,2.3119449999940116,2.9141949999902863,3.602389999985462,4.23656999997911,4.852270000003045,5.500414999987697,6.158215000003111,6.800419999985024,7.460189999983413,8.068469999998342,8.696079999994254,9.388254999998026,10.026374999986729,10.700099999987287,11.360929999995278,12.001909999991767,12.615624999976717]",space,0.478765,0.0,32.0,32.0,20.0,1.0,,
,,,,,,,,,,,block_2/strong_t_105_2.wav,timbre,t,strong,105.0,1.902812304,12.72943362,,,,Yes,EPOS Sennheiser GSP 302,1,No,Male,21,Left,Yes,1,2020-10-05_10h32.11.341,kura-A1,2020.1.2,Win32,60,,,,,,,,,,,,,,"[""space"",""space"",""space"",""space"",""space"",""space"",""space"",""space"",""space"",""space"",""space"",""space"",""space"",""space"",""space"",""space"",""space"",""space"",""space"",""space""]","[0.4878899999894202,1.0121849999995902,1.5536900000006426,2.119024999992689,2.6706950000079814,3.241359999985434,3.8360999999858905,4.3805649999994785,4.925409999996191,5.57172000000719,6.038085000007413,6.572944999992615,7.143450000003213,7.705729999986943,8.212169999984326,8.781489999993937,9.316824999987148,9.883889999997336,10.430644999985816,10.947610000002896]",space,0.472775,0.0,33.0,33.0,22.0,1.0,,
,,,,,,,,,,,block_2/none_t_105_1.wav,timbre,t,none,105.0,2.049885048,16.17201657,,,,Yes,EPOS Sennheiser GSP 302,1,No,Male,21,Left,Yes,1,2020-10-05_10h32.11.341,kura-A1,2020.1.2,Win32,60,,,,,,,,,,,,,,"[""space"",""space"",""space"",""space"",""space"",""space"",""space"",""space"",""space"",""space"",""space"",""space"",""space"",""space"",""space"",""space"",""space"",""space"",""space"",""space"",""space"",""space"",""space"",""space"",""space"",""space"",""space"",""space"",""space"",""space"",""space"",""space"",""space"",""space"",""space"",""space"",""space"",""space"",""space"",""space"",""space"",""space"",""space"",""space"",""space"",""space"",""space"",""space"",""space"",""space"",""space"",""space"",""space"",""space"",""space"",""space"",""space"",""space"",""space""]","[0.5341049999988172,0.8419149999972433,1.3527999999932945,1.839765000011539,2.4316600000020117,2.963065000018105,3.4491799999959767,4.753244999999879,5.14573499999824,5.356380000011995,5.493835000001127,5.755750000011176,5.953490000014426,6.100819999992382,6.230139999999665,6.557334999990417,6.74581500000204,6.914105000003474,7.103220000019064,7.225525000016205,7.548860000009881,7.739744999998948,7.940505000005942,8.108399999997346,8.3148199999996,8.523405000014463,8.76741500000935,8.954029999993509,9.171665000001667,9.32142500000191,9.529234999994515,9.71645500001614,9.909565000009025,10.081895000010263,10.258065000001807,10.425385000009555,10.687160000001313,10.86981500001275,11.055764999997336,11.188610000011977,11.421540000010282,11.57869500000379,11.768979999993462,11.933900000003632,12.088210000016261,12.288480000017444,12.489315000013448,12.679680000001099,12.86393500000122,13.000445000012405,13.163889999996172,13.295895000017481,13.482390000019222,13.650014999991981,13.807150000007823,13.92225000000326,14.108639999991283,14.241320000000997,14.463654999999562]",space,0.26735,0.0,34.0,34.0,17.0,1.0,,
,,,,,,,,,,,block_2/medium_t_119_2.wav,timbre,t,medium,119.0,1.931946566,12.84791029,,,,Yes,EPOS Sennheiser GSP 302,1,No,Male,21,Left,Yes,1,2020-10-05_10h32.11.341,kura-A1,2020.1.2,Win32,60,,,,,,,,,,,,,,"[""space"",""space"",""space"",""space"",""space"",""space"",""space"",""space"",""space"",""space"",""space"",""space"",""space"",""space"",""space"",""space"",""space"",""space"",""space"",""space"",""space"",""space"",""space"",""space"",""space"",""space"",""space"",""space"",""space"",""space"",""space"",""space"",""space"",""space"",""space"",""space"",""space"",""space"",""space"",""space"",""space"",""space"",""space"",""space"",""space"",""space""]","[0.3379449999774806,0.7299799999746028,1.2897499999962747,1.7092849999899045,2.0431699999899138,2.2848549999762326,2.573149999981979,2.8172749999794178,3.117984999989858,3.4116099999810103,3.6307899999956135,3.891414999990957,4.106769999983953,4.71491499998956,4.85366999998223,5.027344999980414,5.17860999997356,5.35282499997993,5.534179999987828,5.652884999988601,5.843909999995958,6.127654999989318,6.248154999979306,6.39685499999905,6.669949999981327,6.849024999974063,7.057554999977583,7.217014999972889,7.3643149999843445,7.531474999996135,7.731599999999162,7.921229999978095,8.080369999981485,8.265224999981001,8.477599999983795,8.640534999984084,8.842884999990929,9.029169999994338,9.688779999996768,9.809079999977257,9.98041999997804,10.225914999988163,10.50470999997924,10.705644999979995,10.91263499998604,11.097949999995762]",space,0.32619,0.0,35.0,35.0,38.0,1.0,,
,,,,,,,,,,,block_2/weak_t_81_2.wav,timbre,t,weak,81.0,1.659662472,15.06274637,,,,Yes,EPOS Sennheiser GSP 302,1,No,Male,21,Left,Yes,1,2020-10-05_10h32.11.341,kura-A1,2020.1.2,Win32,60,,,,,,,,,,,,,,"[""space"",""space"",""space"",""space"",""space"",""space"",""space"",""space"",""space"",""space"",""space"",""space"",""space"",""space"",""space"",""space"",""space"",""space"",""space"",""space"",""space"",""space"",""space"",""space"",""space"",""space"",""space""]","[0.28981499999645166,0.6760700000158977,1.3339350000023842,1.6950899999937974,2.22936500000651,2.705050000018673,3.216565000009723,3.7391550000174902,4.412935000000289,5.020244999992428,5.568094999995083,6.039604999998119,6.246624999999767,6.450240000005579,6.650309999997262,6.858165000012377,7.129524999996647,7.522545000014361,8.052870000014082,8.625835000013467,9.584029999998165,10.053164999990258,10.640364999999292,11.304750000010245,11.968900000007125,12.627189999999246,13.340150000003632]",space,0.3015,0.0,36.0,36.0,5.0,1.0,,
,,,,,,,,,,,block_2/none_t_72_1.wav,timbre,t,none,72.0,1.393664986,20.37801873,,,,Yes,EPOS Sennheiser GSP 302,1,No,Male,21,Left,Yes,1,2020-10-05_10h32.11.341,kura-A1,2020.1.2,Win32,60,,,,,,,,,,,,,,"[""space"",""space"",""space"",""space"",""space"",""space"",""space"",""space"",""space"",""space"",""space"",""space"",""space"",""space"",""space"",""space"",""space"",""space"",""space"",""space"",""space"",""space"",""space"",""space"",""space"",""space"",""space"",""space"",""space"",""space"",""space"",""space"",""space"",""space"",""space"",""space"",""space"",""space"",""space"",""space"",""space"",""space"",""space"",""space"",""space"",""space"",""space"",""space"",""space"",""space"",""space"",""space"",""space"",""space"",""space"",""space"",""space"",""space"",""space"",""space"",""space"",""space"",""space"",""space"",""space"",""space"",""space"",""space"",""space"",""space"",""space"",""space"",""space"",""space"",""space"",""space"",""space"",""space"",""space"",""space"",""space"",""space"",""space"",""space"",""space""]","[0.35840500000631437,0.9138549999915995,1.2884699999995064,1.6137849999940954,1.8958400000119582,2.1918149999983143,2.4452799999853596,2.677445000008447,2.9204249999893364,3.133299999986775,3.3836500000033993,3.6620049999910407,4.331514999998035,4.35443999999552,4.412275000009686,4.625464999990072,4.8117050000000745,4.9982749999908265,5.234460000006948,5.45162999999593,5.693460000009509,5.872624999989057,6.069404999987455,6.2780949999869335,6.496515000006184,6.693815000005998,6.935144999995828,7.111065000004601,7.3337699999974575,7.567660000000615,7.7627900000079535,7.9905800000124145,8.181515000003856,8.383540000009816,8.570960000011837,8.759380000003148,8.997219999990193,9.21932500001276,9.441434999986086,9.63753499998711,9.837614999996731,10.061069999996107,10.446304999990389,10.621580000006361,10.801765000011073,11.023944999993546,11.198689999990165,11.39777999999933,11.624414999998407,11.806805000000168,11.99180499999784,12.22787000000244,12.396370000002207,12.671789999993052,12.826135000010254,12.958994999993593,13.111810000002151,13.41078999999445,13.58158500000718,13.778675000008661,13.968135000002803,14.175274999986868,14.358754999993835,14.543154999992112,14.832854999986012,15.035834999987856,15.237449999985984,15.45561999999336,15.67048000000068,15.854205000010552,16.040409999986878,16.229729999991832,16.516119999985676,16.75777999998536,16.983554999984335,17.341829999990296,17.525205000012647,17.801869999995688,17.980985000001965,18.234900000010384,18.414985000010347,18.564205000002403,18.81686500000069,19.0882500000007,19.210540000000037]",space,0.3048,0.0,37.0,37.0,23.0,1.0,,
,,,,,,,,,,,block_2/none_t_92_1.wav,timbre,t,none,92.0,2.07216362,14.90350149,,,,Yes,EPOS Sennheiser GSP 302,1,No,Male,21,Left,Yes,1,2020-10-05_10h32.11.341,kura-A1,2020.1.2,Win32,60,,,,,,,,,,,,,,"[""space"",""space"",""space"",""space"",""space"",""space"",""space"",""space"",""space"",""space"",""space"",""space"",""space"",""space"",""space"",""space"",""space"",""space"",""space"",""space"",""space"",""space"",""space"",""space"",""space"",""space"",""space"",""space"",""space"",""space"",""space"",""space"",""space"",""space"",""space"",""space"",""space"",""space"",""space"",""space"",""space"",""space"",""space"",""space"",""space"",""space"",""space"",""space"",""space"",""space"",""space"",""space"",""space"",""space""]","[0.2874299999966752,0.5319949999975506,0.6510800000105519,0.8761900000099558,1.2652299999899697,1.4870750000118278,1.6833500000066124,1.891540000011446,2.091160000010859,2.3132800000021234,2.506599999993341,2.6992599999939557,2.89984500000719,3.123445000004722,3.320464999997057,3.578910000011092,3.7888849999872036,3.9718050000083167,4.397460000007413,4.531255000008969,4.73766000001342,4.9096450000070035,5.090674999984913,5.238279999990482,5.627059999998892,5.804420000000391,6.057614999997895,6.189214999991236,6.330920000007609,6.808350000006612,7.014109999989159,7.2632400000002235,7.539155000005849,8.036985000013374,8.59349500000826,8.613509999995586,8.952194999990752,9.153699999995297,9.411289999989094,9.544369999988703,9.837120000011055,10.022380000009434,10.291174999991199,10.48213499999838,10.644224999996368,10.935365000012098,11.125380000012228,11.53169999999227,11.812459999986459,12.047389999992447,12.327235000004293,12.625399999989895,12.778920000011567,12.983589999988908]",space,0.34766,0.0,38.0,38.0,15.0,1.0,,
,,,,,,,,,,,block_2/strong_t_119_1.wav,timbre,t,strong,119.0,1.599889289,11.56710017,,,,Yes,EPOS Sennheiser GSP 302,1,No,Male,21,Left,Yes,1,2020-10-05_10h32.11.341,kura-A1,2020.1.2,Win32,60,,,,,,,,,,,,,,"[""space"",""space"",""space"",""space"",""space"",""space"",""space"",""space"",""space"",""space"",""space"",""space"",""space"",""space"",""space"",""space"",""space"",""space"",""space"",""space"",""space"",""space""]","[0.46933500000159256,0.8481949999986682,1.2361650000093505,1.6427249999833293,2.0988800000050105,2.5391449999879114,3.0725600000005215,3.5372349999961443,4.050790000008419,4.55861000000732,5.0081349999818485,5.491849999991246,5.987079999991693,6.50418499999796,7.009339999989606,7.520549999986542,7.975299999990966,8.374769999994896,8.808034999994561,9.159484999981942,9.584349999990081,10.041995000006864]",space,0.352735,0.0,39.0,39.0,27.0,1.0,,
,,,,,,,,,,,,,,,,,,,,,Yes,EPOS Sennheiser GSP 302,1,No,Male,21,Left,Yes,1,2020-10-05_10h32.11.341,kura-A1,2020.1.2,Win32,60,,,,,,,,,,,,,,,,,,,,,,,space,8.105255
